File: pages/assets/E1.txt
"Abaru Precious2b_191740 - RawData"
"Wavelength nm.","Abs."
200.0,
201.0,
202.0,
203.0,
204.0,
205.0,
206.0,
207.0,
208.0,
209.0,
210.0,
211.0,
212.0,
213.0,
214.0,
215.0,
216.0,
217.0,
218.0,
219.0,
220.0,
221.0,
222.0,
223.0,
224.0,
225.0,
226.0,
227.0,
228.0,
229.0,
230.0,
231.0,
232.0,
233.0,
234.0,
235.0,
236.0,
237.0,
238.0,
239.0,
240.0,
241.0,
242.0,
243.0,
244.0,
245.0,
246.0,
247.0,
248.0,
249.0,
250.0,
251.0,
252.0,
253.0,
254.0,
255.0,
256.0,
257.0,
258.0,
259.0,
260.0,
261.0,
262.0,
263.0,
264.0,
265.0,
266.0,
267.0,
268.0,
269.0,
270.0,
271.0,
272.0,
273.0,
274.0,
275.0,
276.0,
277.0,
278.0,
279.0,
280.0,
281.0,
282.0,
283.0,
284.0,
285.0,
286.0,
287.0,
288.0,
289.0,
290.0,
291.0,
292.0,
293.0,
294.0,
295.0,
296.0,
297.0,
298.0,
299.0,
300.0,0.8128
301.0,0.8142
302.0,0.8097
303.0,0.8076
304.0,0.8045
305.0,0.7988
306.0,0.8081
307.0,0.8072
308.0,0.8049
309.0,0.7998
310.0,0.8002
311.0,0.7964
312.0,0.7930
313.0,0.7897
314.0,0.7925
315.0,0.7933
316.0,0.7867
317.0,0.7892
318.0,0.7856
319.0,0.7877
320.0,0.7848
321.0,0.7856
322.0,0.7846
323.0,0.7823
324.0,0.7841
325.0,0.7818
326.0,0.7832
327.0,0.7822
328.0,0.7820
329.0,0.7816
330.0,0.7811
331.0,0.7826
332.0,0.7807
333.0,0.7815
334.0,0.7827
335.0,0.7814
336.0,0.7816
337.0,0.7812
338.0,0.7828
339.0,0.7825
340.0,0.7598
341.0,0.7337
342.0,0.7327
343.0,0.7316
344.0,0.7323
345.0,0.7339
346.0,0.7326
347.0,0.7319
348.0,0.7314
349.0,0.7306
350.0,0.7300
351.0,0.7314
352.0,0.7296
353.0,0.7293
354.0,0.7272
355.0,0.7289
356.0,0.7282
357.0,0.7285
358.0,0.7256
359.0,0.7262
360.0,0.7262
361.0,0.7230
362.0,0.7226
363.0,0.7230
364.0,0.7222
365.0,0.7242
366.0,0.7235
367.0,0.7221
368.0,0.7220
369.0,0.7206
370.0,0.7208
371.0,0.7198
372.0,0.7185
373.0,0.7180
374.0,0.7170
375.0,0.7160
376.0,0.7015
377.0,0.5134
378.0,0.0182
379.0,-0.1530
380.0,-0.1467
381.0,-0.1389
382.0,-0.0186
383.0,-0.1771
384.0,-0.2459
385.0,-0.5748
386.0,-0.5294
387.0,-0.3921
388.0,-0.3648
389.0,-0.3361
390.0,-0.3039
391.0,-0.2897
392.0,-0.2972
393.0,-0.2640
394.0,-0.2473
395.0,-0.2612
396.0,-0.2800
397.0,-0.3527
398.0,-0.4443
399.0,-0.4167
400.0,-0.3592
401.0,-0.3409
402.0,-0.3459
403.0,-0.3443
404.0,-0.3411
405.0,-0.3439
406.0,-0.3705
407.0,-0.4000
408.0,-0.3041
409.0,-0.2921
410.0,-0.3131
411.0,-0.3864
412.0,-0.3910
413.0,-0.3934
414.0,-0.4068
415.0,-0.4223
416.0,-0.4919
417.0,-0.4039
418.0,0.2513
419.0,0.6897
420.0,0.7053
421.0,0.7053
422.0,0.7046
423.0,0.7045
424.0,0.7046
425.0,0.7046
426.0,0.7045
427.0,0.7045
428.0,0.7039
429.0,0.7039
430.0,0.7037
431.0,0.7036
432.0,0.7034
433.0,0.7030
434.0,0.7028
435.0,0.7029
436.0,0.7019
437.0,0.7018
438.0,0.7017
439.0,0.7014
440.0,0.7009
441.0,0.7007
442.0,0.7003
443.0,0.6994
444.0,0.6991
445.0,0.6986
446.0,0.6982
447.0,0.6974
448.0,0.6971
449.0,0.6966
450.0,0.6956
451.0,0.6953
452.0,0.6946
453.0,0.6941
454.0,0.6931
455.0,0.6925
456.0,0.6916
457.0,0.6909
458.0,0.6899
459.0,0.6893
460.0,0.6885
461.0,0.6877
462.0,0.6867
463.0,0.6857
464.0,0.6848
465.0,0.6839
466.0,0.6831
467.0,0.6823
468.0,0.6812
469.0,0.6801
470.0,0.6793
471.0,0.6786
472.0,0.6778
473.0,0.6767
474.0,0.6759
475.0,0.6746
476.0,0.6735
477.0,0.6724
478.0,0.6711
479.0,0.6699
480.0,0.6687
481.0,0.6674
482.0,0.6660
483.0,0.6646
484.0,0.6629
485.0,0.6613
486.0,0.6601
487.0,0.6581
488.0,0.6566
489.0,0.6553
490.0,0.6537
491.0,0.6523
492.0,0.6507
493.0,0.6498
494.0,0.6487
495.0,0.6478
496.0,0.6471
497.0,0.6462
498.0,0.6456
499.0,0.6447
500.0,0.6439
501.0,0.6431
502.0,0.6423
503.0,0.6416
504.0,0.6404
505.0,0.6396
506.0,0.6386
507.0,0.6377
508.0,0.6369
509.0,0.6358
510.0,0.6349
511.0,0.6342
512.0,0.6332
513.0,0.6326
514.0,0.6314
515.0,0.6305
516.0,0.6298
517.0,0.6289
518.0,0.6281
519.0,0.6274
520.0,0.6266
521.0,0.6259
522.0,0.6249
523.0,0.6244
524.0,0.6237
525.0,0.6229
526.0,0.6223
527.0,0.6217
528.0,0.6212
529.0,0.6208
530.0,0.6202
531.0,0.6196
532.0,0.6192
533.0,0.6187
534.0,0.6181
535.0,0.6178
536.0,0.6171
537.0,0.6165
538.0,0.6161
539.0,0.6158
540.0,0.6153
541.0,0.6148
542.0,0.6143
543.0,0.6140
544.0,0.6137
545.0,0.6134
546.0,0.6132
547.0,0.6128
548.0,0.6125
549.0,0.6123
550.0,0.6119
551.0,0.6114
552.0,0.6112
553.0,0.6111
554.0,0.6107
555.0,0.6107
556.0,0.6104
557.0,0.6100
558.0,0.6099
559.0,0.6098
560.0,0.6095
561.0,0.6096
562.0,0.6092
563.0,0.6090
564.0,0.6088
565.0,0.6086
566.0,0.6084
567.0,0.6081
568.0,0.6078
569.0,0.6077
570.0,0.6075
571.0,0.6073
572.0,0.6071
573.0,0.6070
574.0,0.6067
575.0,0.6066
576.0,0.6065
577.0,0.6063
578.0,0.6061
579.0,0.6060
580.0,0.6057
581.0,0.6055
582.0,0.6052
583.0,0.6049
584.0,0.6048
585.0,0.6046
586.0,0.6043
587.0,0.6040
588.0,0.6038
589.0,0.6035
590.0,0.6032
591.0,0.6029
592.0,0.6026
593.0,0.6022
594.0,0.6019
595.0,0.6017
596.0,0.6013
597.0,0.6009
598.0,0.6006
599.0,0.6003
600.0,0.5999
601.0,0.5995
602.0,0.5991
603.0,0.5988
604.0,0.5983
605.0,0.5978
606.0,0.5975
607.0,0.5970
608.0,0.5965
609.0,0.5961
610.0,0.5957
611.0,0.5951
612.0,0.5947
613.0,0.5941
614.0,0.5935
615.0,0.5930
616.0,0.5926
617.0,0.5919
618.0,0.5914
619.0,0.5908
620.0,0.5903
621.0,0.5897
622.0,0.5891
623.0,0.5885
624.0,0.5878
625.0,0.5873
626.0,0.5866
627.0,0.5859
628.0,0.5853
629.0,0.5846
630.0,0.5840
631.0,0.5834
632.0,0.5828
633.0,0.5821
634.0,0.5816
635.0,0.5809
636.0,0.5804
637.0,0.5798
638.0,0.5787
639.0,0.5776
640.0,0.5765
641.0,0.5751
642.0,0.5738
643.0,0.5723
644.0,0.5708
645.0,0.5694
646.0,0.5681
647.0,0.5672
648.0,0.5666
649.0,0.5659
650.0,0.5654
651.0,0.5651
652.0,0.5648
653.0,0.5644
654.0,0.5639
655.0,0.5632
656.0,0.5623
657.0,0.5619
658.0,0.5610
659.0,0.5602
660.0,0.5593
661.0,0.5586
662.0,0.5577
663.0,0.5568
664.0,0.5561
665.0,0.5554
666.0,0.5543
667.0,0.5535
668.0,0.5526
669.0,0.5518
670.0,0.5510
671.0,0.5500
672.0,0.5488
673.0,0.5481
674.0,0.5473
675.0,0.5463
676.0,0.5455
677.0,0.5446
678.0,0.5437
679.0,0.5428
680.0,0.5420
681.0,0.5411
682.0,0.5402
683.0,0.5393
684.0,0.5383
685.0,0.5374
686.0,0.5365
687.0,0.5356
688.0,0.5348
689.0,0.5340
690.0,0.5330
691.0,0.5321
692.0,0.5313
693.0,0.5305
694.0,0.5297
695.0,0.5288
696.0,0.5279
697.0,0.5271
698.0,0.5263
699.0,0.5255
700.0,0.5248
701.0,0.5239
702.0,0.5231
703.0,0.5224
704.0,0.5215
705.0,0.5207
706.0,0.5198
707.0,0.5191
708.0,0.5184
709.0,0.5177
710.0,0.5169
711.0,0.5161
712.0,0.5154
713.0,0.5146
714.0,0.5139
715.0,0.5132
716.0,0.5124
717.0,0.5117
718.0,0.5111
719.0,0.5102
720.0,0.5097
721.0,0.5091
722.0,0.5085
723.0,0.5078
724.0,0.5071
725.0,0.5065
726.0,0.5060
727.0,0.5053
728.0,0.5048
729.0,0.5042
730.0,0.5035
731.0,0.5031
732.0,0.5026
733.0,0.5019
734.0,0.5014
735.0,0.5009
736.0,0.5003
737.0,0.4998
738.0,0.4992
739.0,0.4989
740.0,0.4983
741.0,0.4979
742.0,0.4973
743.0,0.4969
744.0,0.4965
745.0,0.4961
746.0,0.4956
747.0,0.4951
748.0,0.4947
749.0,0.4943
750.0,0.4940
751.0,0.4936
752.0,0.4931
753.0,0.4928
754.0,0.4924
755.0,0.4920
756.0,0.4918
757.0,0.4914
758.0,0.4911
759.0,0.4907
760.0,0.4900
761.0,0.4897
762.0,0.4894
763.0,0.4892
764.0,0.4889
765.0,0.4886
766.0,0.4884
767.0,0.4880
768.0,0.4877
769.0,0.4876
770.0,0.4873
771.0,0.4871
772.0,0.4868
773.0,0.4865
774.0,0.4864
775.0,0.4864
776.0,0.4863
777.0,0.4861
778.0,0.4858
779.0,0.4856
780.0,0.4855
781.0,0.4853
782.0,0.4850
783.0,0.4849
784.0,0.4848
785.0,0.4847
786.0,0.4845
787.0,0.4844
788.0,0.4841
789.0,0.4842
790.0,0.4839
791.0,0.4838
792.0,0.4837
793.0,0.4836
794.0,0.4835
795.0,0.4834
796.0,0.4834
797.0,0.4833
798.0,0.4830
799.0,0.4829
800.0,0.4828
801.0,0.4827
802.0,0.4827
803.0,0.4826
804.0,0.4825
805.0,0.4824
806.0,0.4824
807.0,0.4824
808.0,0.4823
809.0,0.4821
810.0,0.4821
811.0,0.4820
812.0,0.4819
813.0,0.4819
814.0,0.4819
815.0,0.4817
816.0,0.4816
817.0,0.4817
818.0,0.4817
819.0,0.4817
820.0,0.4816
821.0,0.4815
822.0,0.4815
823.0,0.4814
824.0,0.4814
825.0,0.4813
826.0,0.4813
827.0,0.4813
828.0,0.4813
829.0,0.4812
830.0,0.4813
831.0,0.4812
832.0,0.4812
833.0,0.4812
834.0,0.4812
835.0,0.4812
836.0,0.4811
837.0,0.4811
838.0,0.4811
839.0,0.4809
840.0,0.4809
841.0,0.4809
842.0,0.4809
843.0,0.4809
844.0,0.4807
845.0,0.4807
846.0,0.4807
847.0,0.4806
848.0,0.4806
849.0,0.4806
850.0,0.4806
851.0,0.4805
852.0,0.4805
853.0,0.4806
854.0,0.4806
855.0,0.4805
856.0,0.4803
857.0,0.4803
858.0,0.4805
859.0,0.4802
860.0,0.4801
861.0,0.4802
862.0,0.4802
863.0,0.4801
864.0,0.4799
865.0,0.4799
866.0,0.4799
867.0,0.4799
868.0,0.4799
869.0,0.4799
870.0,0.4798
871.0,0.4798
872.0,0.4797
873.0,0.4796
874.0,0.4794
875.0,0.4795
876.0,0.4794
877.0,0.4795
878.0,0.4793
879.0,0.4792
880.0,0.4791
881.0,0.4791
882.0,0.4792
883.0,0.4790
884.0,0.4791
885.0,0.4790
886.0,0.4789
887.0,0.4789
888.0,0.4787
889.0,0.4788
890.0,0.4786
891.0,0.4786
892.0,0.4786
893.0,0.4784
894.0,0.4783
895.0,0.4783
896.0,0.4783
897.0,0.4781
898.0,0.4780
899.0,0.4780
900.0,0.4779
901.0,
902.0,
903.0,
904.0,
905.0,
906.0,
907.0,
908.0,
909.0,
910.0,
911.0,
912.0,
913.0,
914.0,
915.0,
916.0,
917.0,
918.0,
919.0,
920.0,
921.0,
922.0,
923.0,
924.0,
925.0,
926.0,
927.0,
928.0,
929.0,
930.0,
931.0,
932.0,
933.0,
934.0,
935.0,
936.0,
937.0,
938.0,
939.0,
940.0,
941.0,
942.0,
943.0,
944.0,
945.0,
946.0,
947.0,
948.0,
949.0,
950.0,
951.0,
952.0,
953.0,
954.0,
955.0,
956.0,
957.0,
958.0,
959.0,
960.0,
961.0,
962.0,
963.0,
964.0,
965.0,
966.0,
967.0,
968.0,
969.0,
970.0,
971.0,
972.0,
973.0,
974.0,
975.0,
976.0,
977.0,
978.0,
979.0,
980.0,
981.0,
982.0,
983.0,
984.0,
985.0,
986.0,
987.0,
988.0,
989.0,
990.0,
991.0,
992.0,
993.0,
994.0,
995.0,
996.0,
997.0,
998.0,
999.0,
1000.0,
1001.0,
1002.0,
1003.0,
1004.0,
1005.0,
1006.0,
1007.0,
1008.0,
1009.0,
1010.0,
1011.0,
1012.0,
1013.0,
1014.0,
1015.0,
1016.0,
1017.0,
1018.0,
1019.0,
1020.0,
1021.0,
1022.0,
1023.0,
1024.0,
1025.0,
1026.0,
1027.0,
1028.0,
1029.0,
1030.0,
1031.0,
1032.0,
1033.0,
1034.0,
1035.0,
1036.0,
1037.0,
1038.0,
1039.0,
1040.0,
1041.0,
1042.0,
1043.0,
1044.0,
1045.0,
1046.0,
1047.0,
1048.0,
1049.0,
1050.0,
1051.0,
1052.0,
1053.0,
1054.0,
1055.0,
1056.0,
1057.0,
1058.0,
1059.0,
1060.0,
1061.0,
1062.0,
1063.0,
1064.0,
1065.0,
1066.0,
1067.0,
1068.0,
1069.0,
1070.0,
1071.0,
1072.0,
1073.0,
1074.0,
1075.0,
1076.0,
1077.0,
1078.0,
1079.0,
1080.0,
1081.0,
1082.0,
1083.0,
1084.0,
1085.0,
1086.0,
1087.0,
1088.0,
1089.0,
1090.0,
1091.0,
1092.0,
1093.0,
1094.0,
1095.0,
1096.0,
1097.0,
1098.0,
1099.0,
1100.0,