File: pages/assets/E2.txt
"Abaru Precious2b_192006 - RawData"
"Wavelength nm.","Abs."
200.0,
201.0,
202.0,
203.0,
204.0,
205.0,
206.0,
207.0,
208.0,
209.0,
210.0,
211.0,
212.0,
213.0,
214.0,
215.0,
216.0,
217.0,
218.0,
219.0,
220.0,
221.0,
222.0,
223.0,
224.0,
225.0,
226.0,
227.0,
228.0,
229.0,
230.0,
231.0,
232.0,
233.0,
234.0,
235.0,
236.0,
237.0,
238.0,
239.0,
240.0,
241.0,
242.0,
243.0,
244.0,
245.0,
246.0,
247.0,
248.0,
249.0,
250.0,
251.0,
252.0,
253.0,
254.0,
255.0,
256.0,
257.0,
258.0,
259.0,
260.0,
261.0,
262.0,
263.0,
264.0,
265.0,
266.0,
267.0,
268.0,
269.0,
270.0,
271.0,
272.0,
273.0,
274.0,
275.0,
276.0,
277.0,
278.0,
279.0,
280.0,
281.0,
282.0,
283.0,
284.0,
285.0,
286.0,
287.0,
288.0,
289.0,
290.0,
291.0,
292.0,
293.0,
294.0,
295.0,
296.0,
297.0,
298.0,
299.0,
300.0,1.4518
301.0,1.3784
302.0,1.3559
303.0,1.3403
304.0,1.3309
305.0,1.3307
306.0,1.2509
307.0,1.2345
308.0,1.2587
309.0,1.2200
310.0,1.2187
311.0,1.2180
312.0,1.2134
313.0,1.2156
314.0,1.2027
315.0,1.1968
316.0,1.1877
317.0,1.1863
318.0,1.1807
319.0,1.1847
320.0,1.1768
321.0,1.1739
322.0,1.1691
323.0,1.1663
324.0,1.1686
325.0,1.1624
326.0,1.1602
327.0,1.1581
328.0,1.1538
329.0,1.1511
330.0,1.1504
331.0,1.1469
332.0,1.1455
333.0,1.1439
334.0,1.1458
335.0,1.1441
336.0,1.1418
337.0,1.1390
338.0,1.1355
339.0,1.1376
340.0,1.1700
341.0,1.2010
342.0,1.2047
343.0,1.1989
344.0,1.1974
345.0,1.1956
346.0,1.1880
347.0,1.1902
348.0,1.1872
349.0,1.1856
350.0,1.1794
351.0,1.1826
352.0,1.1785
353.0,1.1729
354.0,1.1736
355.0,1.1728
356.0,1.1686
357.0,1.1663
358.0,1.1610
359.0,1.1582
360.0,1.1568
361.0,1.1536
362.0,1.1511
363.0,1.1460
364.0,1.1420
365.0,1.1461
366.0,1.1441
367.0,1.1388
368.0,1.1362
369.0,1.1338
370.0,1.1305
371.0,1.1264
372.0,1.1218
373.0,1.1164
374.0,1.1141
375.0,1.1122
376.0,1.1089
377.0,1.1045
378.0,1.1003
379.0,1.0960
380.0,1.0941
381.0,1.0903
382.0,1.0870
383.0,1.0844
384.0,1.0815
385.0,1.0786
386.0,1.0758
387.0,1.0725
388.0,1.0694
389.0,1.0658
390.0,1.0630
391.0,1.0611
392.0,1.0580
393.0,1.0553
394.0,1.0539
395.0,1.0504
396.0,1.0492
397.0,1.0474
398.0,1.0451
399.0,1.0440
400.0,1.0417
401.0,1.0404
402.0,1.0385
403.0,1.0368
404.0,1.0356
405.0,1.0339
406.0,1.0331
407.0,1.0311
408.0,1.0303
409.0,1.0294
410.0,1.0287
411.0,1.0271
412.0,1.0265
413.0,1.0249
414.0,1.0245
415.0,1.0237
416.0,1.0217
417.0,1.0197
418.0,1.0190
419.0,1.0182
420.0,1.0167
421.0,1.0166
422.0,1.0155
423.0,1.0148
424.0,1.0143
425.0,1.0136
426.0,1.0130
427.0,1.0118
428.0,1.0106
429.0,1.0100
430.0,1.0085
431.0,1.0078
432.0,1.0069
433.0,1.0057
434.0,1.0044
435.0,1.0033
436.0,1.0019
437.0,1.0005
438.0,0.9991
439.0,0.9975
440.0,0.9956
441.0,0.9942
442.0,0.9924
443.0,0.9899
444.0,0.9880
445.0,0.9862
446.0,0.9838
447.0,0.9814
448.0,0.9792
449.0,0.9769
450.0,0.9742
451.0,0.9714
452.0,0.9687
453.0,0.9658
454.0,0.9629
455.0,0.9598
456.0,0.9565
457.0,0.9529
458.0,0.9495
459.0,0.9461
460.0,0.9422
461.0,0.9386
462.0,0.9345
463.0,0.9308
464.0,0.9262
465.0,0.9223
466.0,0.9180
467.0,0.9133
468.0,0.9089
469.0,0.9043
470.0,0.8993
471.0,0.8947
472.0,0.8902
473.0,0.8858
474.0,0.8806
475.0,0.8754
476.0,0.8706
477.0,0.8651
478.0,0.8598
479.0,0.8547
480.0,0.8490
481.0,0.8437
482.0,0.8381
483.0,0.8323
484.0,0.8264
485.0,0.8210
486.0,0.8155
487.0,0.8092
488.0,0.8035
489.0,0.7974
490.0,0.7912
491.0,0.7848
492.0,0.7787
493.0,0.7727
494.0,0.7668
495.0,0.7611
496.0,0.7549
497.0,0.7490
498.0,0.7432
499.0,0.7377
500.0,0.7318
501.0,0.7262
502.0,0.7208
503.0,0.7150
504.0,0.7093
505.0,0.7037
506.0,0.6982
507.0,0.6925
508.0,0.6873
509.0,0.6821
510.0,0.6766
511.0,0.6713
512.0,0.6661
513.0,0.6612
514.0,0.6560
515.0,0.6510
516.0,0.6460
517.0,0.6411
518.0,0.6366
519.0,0.6319
520.0,0.6275
521.0,0.6234
522.0,0.6189
523.0,0.6149
524.0,0.6109
525.0,0.6070
526.0,0.6030
527.0,0.5994
528.0,0.5959
529.0,0.5923
530.0,0.5889
531.0,0.5858
532.0,0.5824
533.0,0.5795
534.0,0.5767
535.0,0.5738
536.0,0.5716
537.0,0.5693
538.0,0.5667
539.0,0.5643
540.0,0.5619
541.0,0.5596
542.0,0.5572
543.0,0.5551
544.0,0.5532
545.0,0.5513
546.0,0.5496
547.0,0.5479
548.0,0.5462
549.0,0.5446
550.0,0.5432
551.0,0.5417
552.0,0.5404
553.0,0.5392
554.0,0.5379
555.0,0.5368
556.0,0.5358
557.0,0.5348
558.0,0.5339
559.0,0.5330
560.0,0.5321
561.0,0.5314
562.0,0.5307
563.0,0.5300
564.0,0.5294
565.0,0.5288
566.0,0.5284
567.0,0.5278
568.0,0.5273
569.0,0.5271
570.0,0.5266
571.0,0.5263
572.0,0.5260
573.0,0.5257
574.0,0.5254
575.0,0.5251
576.0,0.5250
577.0,0.5247
578.0,0.5245
579.0,0.5243
580.0,0.5242
581.0,0.5240
582.0,0.5238
583.0,0.5237
584.0,0.5236
585.0,0.5235
586.0,0.5233
587.0,0.5232
588.0,0.5231
589.0,0.5229
590.0,0.5228
591.0,0.5227
592.0,0.5224
593.0,0.5223
594.0,0.5221
595.0,0.5219
596.0,0.5217
597.0,0.5215
598.0,0.5213
599.0,0.5211
600.0,0.5208
601.0,0.5207
602.0,0.5204
603.0,0.5201
604.0,0.5199
605.0,0.5195
606.0,0.5191
607.0,0.5187
608.0,0.5183
609.0,0.5179
610.0,0.5174
611.0,0.5171
612.0,0.5166
613.0,0.5161
614.0,0.5157
615.0,0.5152
616.0,0.5147
617.0,0.5141
618.0,0.5136
619.0,0.5130
620.0,0.5124
621.0,0.5117
622.0,0.5111
623.0,0.5104
624.0,0.5097
625.0,0.5089
626.0,0.5082
627.0,0.5074
628.0,0.5067
629.0,0.5059
630.0,0.5051
631.0,0.5043
632.0,0.5035
633.0,0.5026
634.0,0.5018
635.0,0.5008
636.0,0.4999
637.0,0.4991
638.0,0.4982
639.0,0.4972
640.0,0.4963
641.0,0.4953
642.0,0.4942
643.0,0.4930
644.0,0.4918
645.0,0.4907
646.0,0.4894
647.0,0.4882
648.0,0.4871
649.0,0.4859
650.0,0.4848
651.0,0.4835
652.0,0.4825
653.0,0.4813
654.0,0.4802
655.0,0.4790
656.0,0.4777
657.0,0.4766
658.0,0.4753
659.0,0.4741
660.0,0.4729
661.0,0.4716
662.0,0.4704
663.0,0.4691
664.0,0.4679
665.0,0.4668
666.0,0.4653
667.0,0.4642
668.0,0.4631
669.0,0.4618
670.0,0.4606
671.0,0.4592
672.0,0.4579
673.0,0.4568
674.0,0.4556
675.0,0.4544
676.0,0.4530
677.0,0.4518
678.0,0.4506
679.0,0.4494
680.0,0.4482
681.0,0.4469
682.0,0.4458
683.0,0.4446
684.0,0.4434
685.0,0.4421
686.0,0.4410
687.0,0.4398
688.0,0.4386
689.0,0.4376
690.0,0.4364
691.0,0.4353
692.0,0.4343
693.0,0.4330
694.0,0.4321
695.0,0.4311
696.0,0.4299
697.0,0.4289
698.0,0.4278
699.0,0.4269
700.0,0.4259
701.0,0.4250
702.0,0.4238
703.0,0.4229
704.0,0.4219
705.0,0.4210
706.0,0.4201
707.0,0.4191
708.0,0.4183
709.0,0.4174
710.0,0.4165
711.0,0.4156
712.0,0.4148
713.0,0.4139
714.0,0.4132
715.0,0.4124
716.0,0.4117
717.0,0.4109
718.0,0.4102
719.0,0.4093
720.0,0.4087
721.0,0.4081
722.0,0.4075
723.0,0.4069
724.0,0.4062
725.0,0.4056
726.0,0.4051
727.0,0.4045
728.0,0.4039
729.0,0.4034
730.0,0.4028
731.0,0.4024
732.0,0.4020
733.0,0.4015
734.0,0.4010
735.0,0.4005
736.0,0.4001
737.0,0.3997
738.0,0.3994
739.0,0.3991
740.0,0.3986
741.0,0.3984
742.0,0.3980
743.0,0.3977
744.0,0.3974
745.0,0.3971
746.0,0.3969
747.0,0.3966
748.0,0.3964
749.0,0.3962
750.0,0.3961
751.0,0.3959
752.0,0.3957
753.0,0.3955
754.0,0.3954
755.0,0.3952
756.0,0.3952
757.0,0.3950
758.0,0.3950
759.0,0.3949
760.0,0.3951
761.0,0.3958
762.0,0.3958
763.0,0.3958
764.0,0.3958
765.0,0.3958
766.0,0.3959
767.0,0.3960
768.0,0.3959
769.0,0.3960
770.0,0.3961
771.0,0.3963
772.0,0.3964
773.0,0.3964
774.0,0.3966
775.0,0.3967
776.0,0.3969
777.0,0.3971
778.0,0.3972
779.0,0.3974
780.0,0.3976
781.0,0.3978
782.0,0.3979
783.0,0.3982
784.0,0.3985
785.0,0.3988
786.0,0.3990
787.0,0.3991
788.0,0.3994
789.0,0.3998
790.0,0.4001
791.0,0.4004
792.0,0.4007
793.0,0.4010
794.0,0.4013
795.0,0.4016
796.0,0.4020
797.0,0.4023
798.0,0.4026
799.0,0.4030
800.0,0.4034
801.0,0.4037
802.0,0.4041
803.0,0.4044
804.0,0.4049
805.0,0.4053
806.0,0.4057
807.0,0.4062
808.0,0.4067
809.0,0.4070
810.0,0.4074
811.0,0.4078
812.0,0.4083
813.0,0.4088
814.0,0.4092
815.0,0.4096
816.0,0.4101
817.0,0.4105
818.0,0.4110
819.0,0.4115
820.0,0.4119
821.0,0.4124
822.0,0.4130
823.0,0.4133
824.0,0.4139
825.0,0.4144
826.0,0.4148
827.0,0.4154
828.0,0.4159
829.0,0.4164
830.0,0.4169
831.0,0.4174
832.0,0.4179
833.0,0.4184
834.0,0.4189
835.0,0.4194
836.0,0.4199
837.0,0.4205
838.0,0.4210
839.0,0.4214
840.0,0.4220
841.0,0.4226
842.0,0.4231
843.0,0.4237
844.0,0.4242
845.0,0.4247
846.0,0.4254
847.0,0.4259
848.0,0.4265
849.0,0.4270
850.0,0.4276
851.0,0.4282
852.0,0.4287
853.0,0.4294
854.0,0.4299
855.0,0.4304
856.0,0.4311
857.0,0.4317
858.0,0.4322
859.0,0.4327
860.0,0.4333
861.0,0.4339
862.0,0.4345
863.0,0.4350
864.0,0.4356
865.0,0.4362
866.0,0.4370
867.0,0.4376
868.0,0.4382
869.0,0.4389
870.0,0.4394
871.0,0.4400
872.0,0.4406
873.0,0.4411
874.0,0.4418
875.0,0.4424
876.0,0.4430
877.0,0.4435
878.0,0.4442
879.0,0.4448
880.0,0.4456
881.0,0.4461
882.0,0.4468
883.0,0.4474
884.0,0.4480
885.0,0.4487
886.0,0.4493
887.0,0.4500
888.0,0.4507
889.0,0.4513
890.0,0.4519
891.0,0.4527
892.0,0.4533
893.0,0.4539
894.0,0.4545
895.0,0.4551
896.0,0.4558
897.0,0.4565
898.0,0.4570
899.0,0.4579
900.0,0.4584
901.0,
902.0,
903.0,
904.0,
905.0,
906.0,
907.0,
908.0,
909.0,
910.0,
911.0,
912.0,
913.0,
914.0,
915.0,
916.0,
917.0,
918.0,
919.0,
920.0,
921.0,
922.0,
923.0,
924.0,
925.0,
926.0,
927.0,
928.0,
929.0,
930.0,
931.0,
932.0,
933.0,
934.0,
935.0,
936.0,
937.0,
938.0,
939.0,
940.0,
941.0,
942.0,
943.0,
944.0,
945.0,
946.0,
947.0,
948.0,
949.0,
950.0,
951.0,
952.0,
953.0,
954.0,
955.0,
956.0,
957.0,
958.0,
959.0,
960.0,
961.0,
962.0,
963.0,
964.0,
965.0,
966.0,
967.0,
968.0,
969.0,
970.0,
971.0,
972.0,
973.0,
974.0,
975.0,
976.0,
977.0,
978.0,
979.0,
980.0,
981.0,
982.0,
983.0,
984.0,
985.0,
986.0,
987.0,
988.0,
989.0,
990.0,
991.0,
992.0,
993.0,
994.0,
995.0,
996.0,
997.0,
998.0,
999.0,
1000.0,
1001.0,
1002.0,
1003.0,
1004.0,
1005.0,
1006.0,
1007.0,
1008.0,
1009.0,
1010.0,
1011.0,
1012.0,
1013.0,
1014.0,
1015.0,
1016.0,
1017.0,
1018.0,
1019.0,
1020.0,
1021.0,
1022.0,
1023.0,
1024.0,
1025.0,
1026.0,
1027.0,
1028.0,
1029.0,
1030.0,
1031.0,
1032.0,
1033.0,
1034.0,
1035.0,
1036.0,
1037.0,
1038.0,
1039.0,
1040.0,
1041.0,
1042.0,
1043.0,
1044.0,
1045.0,
1046.0,
1047.0,
1048.0,
1049.0,
1050.0,
1051.0,
1052.0,
1053.0,
1054.0,
1055.0,
1056.0,
1057.0,
1058.0,
1059.0,
1060.0,
1061.0,
1062.0,
1063.0,
1064.0,
1065.0,
1066.0,
1067.0,
1068.0,
1069.0,
1070.0,
1071.0,
1072.0,
1073.0,
1074.0,
1075.0,
1076.0,
1077.0,
1078.0,
1079.0,
1080.0,
1081.0,
1082.0,
1083.0,
1084.0,
1085.0,
1086.0,
1087.0,
1088.0,
1089.0,
1090.0,
1091.0,
1092.0,
1093.0,
1094.0,
1095.0,
1096.0,
1097.0,
1098.0,
1099.0,
1100.0,