File: pages/assets/E3.txt
"Abaru Precious2b_192218 - RawData"
"Wavelength nm.","Abs."
200.0,
201.0,
202.0,
203.0,
204.0,
205.0,
206.0,
207.0,
208.0,
209.0,
210.0,
211.0,
212.0,
213.0,
214.0,
215.0,
216.0,
217.0,
218.0,
219.0,
220.0,
221.0,
222.0,
223.0,
224.0,
225.0,
226.0,
227.0,
228.0,
229.0,
230.0,
231.0,
232.0,
233.0,
234.0,
235.0,
236.0,
237.0,
238.0,
239.0,
240.0,
241.0,
242.0,
243.0,
244.0,
245.0,
246.0,
247.0,
248.0,
249.0,
250.0,
251.0,
252.0,
253.0,
254.0,
255.0,
256.0,
257.0,
258.0,
259.0,
260.0,
261.0,
262.0,
263.0,
264.0,
265.0,
266.0,
267.0,
268.0,
269.0,
270.0,
271.0,
272.0,
273.0,
274.0,
275.0,
276.0,
277.0,
278.0,
279.0,
280.0,
281.0,
282.0,
283.0,
284.0,
285.0,
286.0,
287.0,
288.0,
289.0,
290.0,
291.0,
292.0,
293.0,
294.0,
295.0,
296.0,
297.0,
298.0,
299.0,
300.0,1.1444
301.0,1.1331
302.0,1.1214
303.0,1.1057
304.0,1.0825
305.0,1.0751
306.0,1.0823
307.0,1.0519
308.0,1.0547
309.0,1.0222
310.0,1.0315
311.0,1.0162
312.0,1.0118
313.0,0.9996
314.0,0.9984
315.0,0.9861
316.0,0.9794
317.0,0.9794
318.0,0.9692
319.0,0.9634
320.0,0.9563
321.0,0.9527
322.0,0.9480
323.0,0.9411
324.0,0.9381
325.0,0.9382
326.0,0.9344
327.0,0.9320
328.0,0.9297
329.0,0.9296
330.0,0.9263
331.0,0.9271
332.0,0.9238
333.0,0.9252
334.0,0.9235
335.0,0.9222
336.0,0.9223
337.0,0.9234
338.0,0.9235
339.0,0.9237
340.0,0.9221
341.0,0.9273
342.0,0.9247
343.0,0.9249
344.0,0.9259
345.0,0.9262
346.0,0.9225
347.0,0.9246
348.0,0.9217
349.0,0.9198
350.0,0.9163
351.0,0.9144
352.0,0.9137
353.0,0.9109
354.0,0.9069
355.0,0.9043
356.0,0.9027
357.0,0.8990
358.0,0.8948
359.0,0.8916
360.0,0.8867
361.0,0.8830
362.0,0.8784
363.0,0.8739
364.0,0.8714
365.0,0.8679
366.0,0.8602
367.0,0.8560
368.0,0.8510
369.0,0.8468
370.0,0.8427
371.0,0.8371
372.0,0.8323
373.0,0.8284
374.0,0.8246
375.0,0.8191
376.0,0.8158
377.0,0.8119
378.0,0.8066
379.0,0.8024
380.0,0.7983
381.0,0.7955
382.0,0.7919
383.0,0.7880
384.0,0.7854
385.0,0.7819
386.0,0.7796
387.0,0.7765
388.0,0.7743
389.0,0.7715
390.0,0.7697
391.0,0.7677
392.0,0.7662
393.0,0.7643
394.0,0.7627
395.0,0.7617
396.0,0.7611
397.0,0.7602
398.0,0.7599
399.0,0.7591
400.0,0.7590
401.0,0.7591
402.0,0.7592
403.0,0.7590
404.0,0.7595
405.0,0.7604
406.0,0.7608
407.0,0.7614
408.0,0.7622
409.0,0.7629
410.0,0.7643
411.0,0.7652
412.0,0.7663
413.0,0.7675
414.0,0.7688
415.0,0.7700
416.0,0.7710
417.0,0.7725
418.0,0.7738
419.0,0.7750
420.0,0.7763
421.0,0.7776
422.0,0.7785
423.0,0.7797
424.0,0.7806
425.0,0.7815
426.0,0.7827
427.0,0.7835
428.0,0.7842
429.0,0.7849
430.0,0.7855
431.0,0.7859
432.0,0.7863
433.0,0.7865
434.0,0.7867
435.0,0.7867
436.0,0.7866
437.0,0.7864
438.0,0.7861
439.0,0.7853
440.0,0.7847
441.0,0.7838
442.0,0.7830
443.0,0.7817
444.0,0.7805
445.0,0.7791
446.0,0.7777
447.0,0.7759
448.0,0.7741
449.0,0.7720
450.0,0.7702
451.0,0.7679
452.0,0.7655
453.0,0.7630
454.0,0.7602
455.0,0.7574
456.0,0.7544
457.0,0.7514
458.0,0.7481
459.0,0.7448
460.0,0.7412
461.0,0.7376
462.0,0.7337
463.0,0.7299
464.0,0.7256
465.0,0.7214
466.0,0.7172
467.0,0.7127
468.0,0.7083
469.0,0.7039
470.0,0.6989
471.0,0.6943
472.0,0.6893
473.0,0.6847
474.0,0.6798
475.0,0.6747
476.0,0.6699
477.0,0.6645
478.0,0.6592
479.0,0.6540
480.0,0.6486
481.0,0.6432
482.0,0.6379
483.0,0.6325
484.0,0.6269
485.0,0.6217
486.0,0.6164
487.0,0.6104
488.0,0.6048
489.0,0.5993
490.0,0.5935
491.0,0.5879
492.0,0.5823
493.0,0.5767
494.0,0.5713
495.0,0.5659
496.0,0.5605
497.0,0.5551
498.0,0.5499
499.0,0.5449
500.0,0.5399
501.0,0.5350
502.0,0.5301
503.0,0.5252
504.0,0.5200
505.0,0.5154
506.0,0.5107
507.0,0.5060
508.0,0.5018
509.0,0.4975
510.0,0.4930
511.0,0.4889
512.0,0.4847
513.0,0.4809
514.0,0.4769
515.0,0.4731
516.0,0.4695
517.0,0.4661
518.0,0.4628
519.0,0.4594
520.0,0.4563
521.0,0.4535
522.0,0.4505
523.0,0.4478
524.0,0.4452
525.0,0.4428
526.0,0.4403
527.0,0.4381
528.0,0.4360
529.0,0.4340
530.0,0.4320
531.0,0.4303
532.0,0.4286
533.0,0.4270
534.0,0.4256
535.0,0.4241
536.0,0.4231
537.0,0.4222
538.0,0.4210
539.0,0.4198
540.0,0.4189
541.0,0.4179
542.0,0.4170
543.0,0.4162
544.0,0.4155
545.0,0.4147
546.0,0.4142
547.0,0.4136
548.0,0.4131
549.0,0.4127
550.0,0.4122
551.0,0.4118
552.0,0.4114
553.0,0.4111
554.0,0.4108
555.0,0.4105
556.0,0.4103
557.0,0.4101
558.0,0.4100
559.0,0.4098
560.0,0.4095
561.0,0.4095
562.0,0.4094
563.0,0.4094
564.0,0.4092
565.0,0.4091
566.0,0.4090
567.0,0.4089
568.0,0.4088
569.0,0.4088
570.0,0.4086
571.0,0.4086
572.0,0.4085
573.0,0.4084
574.0,0.4083
575.0,0.4081
576.0,0.4081
577.0,0.4079
578.0,0.4077
579.0,0.4075
580.0,0.4074
581.0,0.4071
582.0,0.4070
583.0,0.4067
584.0,0.4064
585.0,0.4062
586.0,0.4058
587.0,0.4054
588.0,0.4051
589.0,0.4046
590.0,0.4043
591.0,0.4039
592.0,0.4034
593.0,0.4030
594.0,0.4025
595.0,0.4020
596.0,0.4014
597.0,0.4009
598.0,0.4004
599.0,0.3997
600.0,0.3991
601.0,0.3985
602.0,0.3978
603.0,0.3971
604.0,0.3965
605.0,0.3958
606.0,0.3950
607.0,0.3941
608.0,0.3933
609.0,0.3925
610.0,0.3916
611.0,0.3908
612.0,0.3899
613.0,0.3889
614.0,0.3880
615.0,0.3870
616.0,0.3862
617.0,0.3851
618.0,0.3842
619.0,0.3832
620.0,0.3822
621.0,0.3811
622.0,0.3801
623.0,0.3790
624.0,0.3779
625.0,0.3768
626.0,0.3757
627.0,0.3746
628.0,0.3735
629.0,0.3723
630.0,0.3712
631.0,0.3701
632.0,0.3689
633.0,0.3677
634.0,0.3666
635.0,0.3654
636.0,0.3641
637.0,0.3629
638.0,0.3617
639.0,0.3604
640.0,0.3594
641.0,0.3583
642.0,0.3570
643.0,0.3557
644.0,0.3544
645.0,0.3532
646.0,0.3519
647.0,0.3506
648.0,0.3495
649.0,0.3482
650.0,0.3470
651.0,0.3458
652.0,0.3447
653.0,0.3435
654.0,0.3423
655.0,0.3410
656.0,0.3398
657.0,0.3387
658.0,0.3375
659.0,0.3363
660.0,0.3351
661.0,0.3339
662.0,0.3327
663.0,0.3316
664.0,0.3305
665.0,0.3295
666.0,0.3283
667.0,0.3273
668.0,0.3262
669.0,0.3251
670.0,0.3242
671.0,0.3230
672.0,0.3220
673.0,0.3210
674.0,0.3200
675.0,0.3190
676.0,0.3180
677.0,0.3170
678.0,0.3161
679.0,0.3151
680.0,0.3142
681.0,0.3133
682.0,0.3125
683.0,0.3116
684.0,0.3106
685.0,0.3098
686.0,0.3090
687.0,0.3082
688.0,0.3074
689.0,0.3067
690.0,0.3059
691.0,0.3051
692.0,0.3044
693.0,0.3037
694.0,0.3030
695.0,0.3023
696.0,0.3016
697.0,0.3011
698.0,0.3004
699.0,0.2999
700.0,0.2993
701.0,0.2987
702.0,0.2980
703.0,0.2976
704.0,0.2970
705.0,0.2966
706.0,0.2961
707.0,0.2956
708.0,0.2952
709.0,0.2947
710.0,0.2944
711.0,0.2939
712.0,0.2936
713.0,0.2931
714.0,0.2928
715.0,0.2925
716.0,0.2922
717.0,0.2919
718.0,0.2916
719.0,0.2912
720.0,0.2910
721.0,0.2909
722.0,0.2907
723.0,0.2905
724.0,0.2902
725.0,0.2900
726.0,0.2899
727.0,0.2897
728.0,0.2896
729.0,0.2894
730.0,0.2893
731.0,0.2892
732.0,0.2893
733.0,0.2892
734.0,0.2890
735.0,0.2890
736.0,0.2889
737.0,0.2889
738.0,0.2889
739.0,0.2889
740.0,0.2889
741.0,0.2890
742.0,0.2890
743.0,0.2891
744.0,0.2891
745.0,0.2891
746.0,0.2892
747.0,0.2893
748.0,0.2893
749.0,0.2894
750.0,0.2896
751.0,0.2896
752.0,0.2897
753.0,0.2898
754.0,0.2901
755.0,0.2902
756.0,0.2904
757.0,0.2905
758.0,0.2907
759.0,0.2909
760.0,0.2912
761.0,0.2921
762.0,0.2924
763.0,0.2926
764.0,0.2928
765.0,0.2930
766.0,0.2932
767.0,0.2935
768.0,0.2937
769.0,0.2940
770.0,0.2943
771.0,0.2945
772.0,0.2948
773.0,0.2951
774.0,0.2953
775.0,0.2956
776.0,0.2960
777.0,0.2963
778.0,0.2966
779.0,0.2969
780.0,0.2972
781.0,0.2975
782.0,0.2978
783.0,0.2982
784.0,0.2985
785.0,0.2988
786.0,0.2991
787.0,0.2994
788.0,0.2997
789.0,0.3001
790.0,0.3005
791.0,0.3009
792.0,0.3012
793.0,0.3015
794.0,0.3019
795.0,0.3022
796.0,0.3027
797.0,0.3030
798.0,0.3033
799.0,0.3038
800.0,0.3041
801.0,0.3044
802.0,0.3048
803.0,0.3052
804.0,0.3057
805.0,0.3060
806.0,0.3064
807.0,0.3070
808.0,0.3073
809.0,0.3077
810.0,0.3080
811.0,0.3084
812.0,0.3087
813.0,0.3091
814.0,0.3095
815.0,0.3100
816.0,0.3104
817.0,0.3109
818.0,0.3113
819.0,0.3117
820.0,0.3120
821.0,0.3125
822.0,0.3129
823.0,0.3132
824.0,0.3136
825.0,0.3141
826.0,0.3145
827.0,0.3149
828.0,0.3153
829.0,0.3157
830.0,0.3161
831.0,0.3165
832.0,0.3169
833.0,0.3174
834.0,0.3177
835.0,0.3181
836.0,0.3185
837.0,0.3190
838.0,0.3194
839.0,0.3197
840.0,0.3202
841.0,0.3206
842.0,0.3211
843.0,0.3215
844.0,0.3219
845.0,0.3223
846.0,0.3227
847.0,0.3231
848.0,0.3236
849.0,0.3240
850.0,0.3244
851.0,0.3249
852.0,0.3253
853.0,0.3257
854.0,0.3261
855.0,0.3265
856.0,0.3270
857.0,0.3273
858.0,0.3277
859.0,0.3282
860.0,0.3285
861.0,0.3290
862.0,0.3294
863.0,0.3298
864.0,0.3302
865.0,0.3308
866.0,0.3313
867.0,0.3317
868.0,0.3322
869.0,0.3326
870.0,0.3330
871.0,0.3334
872.0,0.3338
873.0,0.3343
874.0,0.3347
875.0,0.3351
876.0,0.3355
877.0,0.3359
878.0,0.3364
879.0,0.3368
880.0,0.3374
881.0,0.3378
882.0,0.3383
883.0,0.3387
884.0,0.3392
885.0,0.3397
886.0,0.3401
887.0,0.3405
888.0,0.3409
889.0,0.3413
890.0,0.3418
891.0,0.3423
892.0,0.3428
893.0,0.3433
894.0,0.3437
895.0,0.3441
896.0,0.3447
897.0,0.3450
898.0,0.3454
899.0,0.3460
900.0,0.3464
901.0,
902.0,
903.0,
904.0,
905.0,
906.0,
907.0,
908.0,
909.0,
910.0,
911.0,
912.0,
913.0,
914.0,
915.0,
916.0,
917.0,
918.0,
919.0,
920.0,
921.0,
922.0,
923.0,
924.0,
925.0,
926.0,
927.0,
928.0,
929.0,
930.0,
931.0,
932.0,
933.0,
934.0,
935.0,
936.0,
937.0,
938.0,
939.0,
940.0,
941.0,
942.0,
943.0,
944.0,
945.0,
946.0,
947.0,
948.0,
949.0,
950.0,
951.0,
952.0,
953.0,
954.0,
955.0,
956.0,
957.0,
958.0,
959.0,
960.0,
961.0,
962.0,
963.0,
964.0,
965.0,
966.0,
967.0,
968.0,
969.0,
970.0,
971.0,
972.0,
973.0,
974.0,
975.0,
976.0,
977.0,
978.0,
979.0,
980.0,
981.0,
982.0,
983.0,
984.0,
985.0,
986.0,
987.0,
988.0,
989.0,
990.0,
991.0,
992.0,
993.0,
994.0,
995.0,
996.0,
997.0,
998.0,
999.0,
1000.0,
1001.0,
1002.0,
1003.0,
1004.0,
1005.0,
1006.0,
1007.0,
1008.0,
1009.0,
1010.0,
1011.0,
1012.0,
1013.0,
1014.0,
1015.0,
1016.0,
1017.0,
1018.0,
1019.0,
1020.0,
1021.0,
1022.0,
1023.0,
1024.0,
1025.0,
1026.0,
1027.0,
1028.0,
1029.0,
1030.0,
1031.0,
1032.0,
1033.0,
1034.0,
1035.0,
1036.0,
1037.0,
1038.0,
1039.0,
1040.0,
1041.0,
1042.0,
1043.0,
1044.0,
1045.0,
1046.0,
1047.0,
1048.0,
1049.0,
1050.0,
1051.0,
1052.0,
1053.0,
1054.0,
1055.0,
1056.0,
1057.0,
1058.0,
1059.0,
1060.0,
1061.0,
1062.0,
1063.0,
1064.0,
1065.0,
1066.0,
1067.0,
1068.0,
1069.0,
1070.0,
1071.0,
1072.0,
1073.0,
1074.0,
1075.0,
1076.0,
1077.0,
1078.0,
1079.0,
1080.0,
1081.0,
1082.0,
1083.0,
1084.0,
1085.0,
1086.0,
1087.0,
1088.0,
1089.0,
1090.0,
1091.0,
1092.0,
1093.0,
1094.0,
1095.0,
1096.0,
1097.0,
1098.0,
1099.0,
1100.0,